STUDYID,USUBJID,SUBJID,SITEID,COUNTRY,REGION1,REGION1N,AGE,AGEU,AGEGR1,AGEGR1N,SEX,RACE,ITTFL,RACEN,RACEGR1,RACEGR1N,ETHNIC,SAFFL,RANDFL,RANDDT,ARM,ARMCD,ACTARM,ACTARMCD,TRT01P,TRT01PN,TRT01A,TRT01AN,TRTSDT,TRTSTM,TRTSDTM,TRTSTMF,TRTEDT,TRTEDTM,TRTETMF,TRTDURD,DTHDTC,DTHDT,DTHDTF,DTHFL,DTHADY,LDDTHELD,DTHCAUS,DTHDOM,DTHCGR1,DTHCGR1N,SCRFDT,EOSDT,EOSSTT,FRVDT
CDISCPILOT01,01-716-1331,1331,716,USA,North America,1,93,YEARS,65,3,Female,White,,4,White,1,Not Hispanic or Latino,N,,,Treatment A,TrtA,Treatment A,TrtA,Treatment A,1,Treatment A,1,,,,,,,,,,,,,,,,,,,2013-11-25,,,
CDISCPILOT01,01-708-1019,1019,708,USA,North America,1,49,YEARS,41–64,2,Male,White,Y,4,White,1,Not Hispanic or Latino,Y,Y,2013-12-20,Treatment B,TrtB,Treatment B,TrtB,Treatment B,2,Treatment B,2,2013-12-20,00:00:00,2013-12-20,H,2014-01-01,2014-01-01 23:59:59,H,13.0,,,,,,,,,,,,2014-01-23,DISCONTINUED,
CDISCPILOT01,01-711-1036,1036,711,USA,North America,1,56,YEARS,41–64,2,Male,White,Y,3,Non-white,2,Not Hispanic or Latino,Y,Y,2012-07-29,Treatment A,TrtA,Treatment A,TrtA,Treatment A,1,Treatment A,1,2012-07-29,00:00:00,2012-07-29,H,2013-02-10,2013-02-10 23:59:59,H,197.0,,,,,,,,,,,,2013-02-10,COMPLETED,
CDISCPILOT01,01-701-1180,1180,701,USA,North America,1,54,YEARS,41–64,2,Male,White,Y,4,White,1,Hispanic or Latino,Y,Y,2013-02-12,Treatment B,TrtB,Treatment B,TrtB,Treatment B,2,Treatment B,2,2013-02-12,00:00:00,2013-02-12,H,2013-03-18,2013-03-18 23:59:59,H,35.0,,,,,,,,,,,,2013-03-23,DISCONTINUED,
CDISCPILOT01,01-701-1133,1133,701,USA,North America,1,57,YEARS,41–64,2,Male,White,Y,4,White,1,Not Hispanic or Latino,Y,Y,2012-10-28,Treatment A,TrtA,Treatment A,TrtA,Treatment A,1,Treatment A,1,2012-10-28,00:00:00,2012-10-28,H,2013-04-28,2013-04-28 23:59:59,H,183.0,,,,,,,,,,,,2013-04-29,COMPLETED,
CDISCPILOT01,01-717-1174,1174,717,USA,North America,1,49,YEARS,41–64,2,Female,White,Y,4,White,1,Not Hispanic or Latino,Y,Y,2013-01-22,Treatment A,TrtA,Treatment A,TrtA,Treatment A,1,Treatment A,1,2013-01-22,00:00:00,2013-01-22,H,2013-07-24,2013-07-24 23:59:59,H,184.0,,,,,,,,,,,,2013-07-24,COMPLETED,
CDISCPILOT01,01-716-1044,1044,716,USA,North America,1,60,YEARS,41–64,2,Male,White,Y,4,White,1,Not Hispanic or Latino,Y,Y,2013-04-27,Treatment B,TrtB,Treatment B,TrtB,Treatment B,2,Treatment B,2,2013-04-27,00:00:00,2013-04-27,H,2013-11-03,2013-11-03 23:59:59,H,191.0,,,,,,,,,,,,2013-11-03,COMPLETED,
CDISCPILOT01,01-703-1119,1119,703,USA,North America,1,24,YEARS,18–40,1,Male,White,Y,4,White,1,Not Hispanic or Latino,Y,Y,2013-02-20,Treatment A,TrtA,Treatment A,TrtA,Treatment A,1,Treatment A,1,2013-02-20,00:00:00,2013-02-20,H,2013-06-13,2013-06-13 23:59:59,H,114.0,,,,,,,,,,,,2013-06-13,DISCONTINUED,2013-08-24
CDISCPILOT01,01-705-1393,1393,705,USA,North America,1,67,YEARS,65,3,Female,White,Y,4,White,1,Not Hispanic or Latino,Y,Y,2012-09-07,Treatment A,TrtA,Treatment A,TrtA,Treatment A,1,Treatment A,1,2012-09-07,00:00:00,2012-09-07,H,2013-02-01,2013-02-01 23:59:59,H,148.0,,,,,,,,,,,,2013-02-20,DISCONTINUED,
CDISCPILOT01,01-716-1103,1103,716,USA,North America,1,48,YEARS,41–64,2,Male,White,Y,4,White,1,Hispanic or Latino,Y,Y,2014-03-20,Treatment A,TrtA,Treatment A,TrtA,Treatment A,1,Treatment A,1,2014-03-20,00:00:00,2014-03-20,H,2014-09-20,2014-09-20 23:59:59,H,185.0,,,,,,,,,,,,2014-09-20,COMPLETED,
CDISCPILOT01,01-710-1077,1077,710,USA,North America,1,62,YEARS,41–64,2,Male,White,Y,4,White,1,Not Hispanic or Latino,Y,Y,2013-11-17,Treatment B,TrtB,Treatment B,TrtB,Treatment B,2,Treatment B,2,2013-11-17,00:00:00,2013-11-17,H,2014-05-18,2014-05-18 23:59:59,H,183.0,,,,,,,,,,,,2014-05-18,COMPLETED,
CDISCPILOT01,01-710-1315,1315,710,USA,North America,1,44,YEARS,41–64,2,Female,Black or African American,Y,4,White,1,Not Hispanic or Latino,Y,Y,2013-02-27,Treatment B,TrtB,Treatment B,TrtB,Treatment B,2,Treatment B,2,2013-02-27,00:00:00,2013-02-27,H,2013-07-06,2013-07-06 23:59:59,H,130.0,,,,,,,,,,,,2013-07-16,DISCONTINUED,
CDISCPILOT01,01-704-1218,1218,704,USA,North America,1,80,YEARS,65,3,Male,White,Y,4,White,1,Not Hispanic or Latino,Y,Y,2012-11-19,Treatment A,TrtA,Treatment A,TrtA,Treatment A,1,Treatment A,1,2012-11-19,00:00:00,2012-11-19,H,2013-05-27,2013-05-27 23:59:59,H,190.0,,,,,,,,,,,,2013-05-27,COMPLETED,
CDISCPILOT01,01-717-1446,1446,717,USA,North America,1,71,YEARS,65,3,Male,White,Y,4,White,1,Not Hispanic or Latino,Y,Y,2013-09-01,Treatment B,TrtB,Treatment B,TrtB,Treatment B,2,Treatment B,2,2013-09-01,00:00:00,2013-09-01,H,2014-03-03,2014-03-03 23:59:59,H,184.0,,,,,,,,,,,,2014-03-04,COMPLETED,
CDISCPILOT01,01-716-1447,1447,716,USA,North America,1,77,YEARS,65,3,Male,White,Y,4,White,1,Not Hispanic or Latino,Y,Y,2013-12-16,Treatment B,TrtB,Treatment B,TrtB,Treatment B,2,Treatment B,2,2013-12-16,00:00:00,2013-12-16,H,2014-06-17,2014-06-17 23:59:59,H,184.0,,,,,,,,,,,,2014-06-17,COMPLETED,
CDISCPILOT01,01-709-1301,1301,709,USA,North America,1,55,YEARS,41–64,2,Male,White,Y,4,White,1,Not Hispanic or Latino,Y,Y,2013-07-19,Treatment A,TrtA,Treatment A,TrtA,Treatment A,1,Treatment A,1,2013-07-19,00:00:00,2013-07-19,H,2014-01-17,2014-01-17 23:59:59,H,183.0,,,,,,,,,,,,2014-01-17,COMPLETED,
CDISCPILOT01,01-710-1006,1006,710,USA,North America,1,58,YEARS,41–64,2,Male,White,Y,4,White,1,Hispanic or Latino,Y,Y,2013-02-10,Treatment A,TrtA,Treatment A,TrtA,Treatment A,1,Treatment A,1,2013-02-10,00:00:00,2013-02-10,H,2013-08-09,2013-08-09 23:59:59,H,181.0,,,,,,,,,,,,2013-08-10,COMPLETED,
CDISCPILOT01,01-710-1315,1315,710,USA,North America,1,43,YEARS,41–64,2,Male,Native Hawaiian or other Pacific Islander,Y,4,White,1,Not Hispanic or Latino,Y,Y,2013-02-27,Treatment A,TrtA,Treatment A,TrtA,Treatment A,1,Treatment A,1,2013-02-27,00:00:00,2013-02-27,H,2013-07-06,2013-07-06 23:59:59,H,130.0,,,,,,,,,,,,2013-07-16,DISCONTINUED,
CDISCPILOT01,01-708-1428,1428,708,USA,North America,1,90,YEARS,65,3,Female,Asian,Y,4,White,1,Not Hispanic or Latino,Y,Y,2013-11-09,Treatment B,TrtB,Treatment B,TrtB,Treatment B,2,Treatment B,2,2013-11-09,00:00:00,2013-11-09,H,2013-12-14,2013-12-14 23:59:59,H,36.0,,,,,,,,,,,,2014-01-31,DISCONTINUED,
CDISCPILOT01,01-713-1141,1141,713,USA,North America,1,50,YEARS,41–64,2,Male,Black or African American,Y,4,White,1,Not Hispanic or Latino,Y,Y,2013-05-31,Treatment A,TrtA,Treatment A,TrtA,Treatment A,1,Treatment A,1,2013-05-31,00:00:00,2013-05-31,H,2013-07-01,2013-07-01 23:59:59,H,32.0,,,,,,,,,,,,2013-08-06,DISCONTINUED,
CDISCPILOT01,01-710-1070,1070,710,USA,North America,1,95,YEARS,65,3,Male,White,Y,4,White,1,Not Hispanic or Latino,Y,Y,2012-09-08,Treatment A,TrtA,Treatment A,TrtA,Treatment A,1,Treatment A,1,2012-09-08,00:00:00,2012-09-08,H,2013-01-22,2013-01-22 23:59:59,H,137.0,,,,,,,,,,,,2013-02-23,DISCONTINUED,
CDISCPILOT01,01-716-1167,1167,716,USA,North America,1,78,YEARS,65,3,Male,Black or African American,Y,4,White,1,Hispanic or Latino,Y,Y,2012-10-08,Treatment A,TrtA,Treatment A,TrtA,Treatment A,1,Treatment A,1,2012-10-08,00:00:00,2012-10-08,H,2013-04-12,2013-04-12 23:59:59,H,187.0,,,,,,,,,,,,2013-04-13,COMPLETED,
CDISCPILOT01,01-705-1186,1186,705,USA,North America,1,69,YEARS,65,3,Female,White,Y,4,White,1,Not Hispanic or Latino,Y,Y,2014-01-08,Treatment B,TrtB,Treatment B,TrtB,Treatment B,2,Treatment B,2,2014-01-08,00:00:00,2014-01-08,H,2014-01-26,2014-01-26 23:59:59,H,19.0,,,,,,,,,,,,2014-02-07,DISCONTINUED,
CDISCPILOT01,01-711-1022,1022,711,USA,North America,1,67,YEARS,65,3,Male,Black or African American,,4,White,1,Not Hispanic or Latino,N,,,Treatment A,TrtA,Treatment A,TrtA,Treatment A,1,Treatment A,1,,,,,,,,,,,,,,,,,,,2014-03-17,,,
CDISCPILOT01,01-703-1279,1279,703,USA,North America,1,47,YEARS,41–64,2,Male,Asian,Y,4,White,1,Not Hispanic or Latino,Y,Y,2013-05-13,Treatment B,TrtB,Treatment B,TrtB,Treatment B,2,Treatment B,2,2013-05-13,00:00:00,2013-05-13,H,2013-06-03,2013-06-03 23:59:59,H,22.0,,,,,,,,,,,,2013-06-22,DISCONTINUED,
CDISCPILOT01,01-713-1179,1179,713,USA,North America,1,70,YEARS,65,3,Male,White,Y,4,White,1,Not Hispanic or Latino,Y,Y,2013-08-09,Treatment B,TrtB,Treatment B,TrtB,Treatment B,2,Treatment B,2,2013-08-09,00:00:00,2013-08-09,H,2014-02-05,2014-02-05 23:59:59,H,181.0,,,,,,,,,,,,2014-02-05,COMPLETED,
CDISCPILOT01,01-710-1271,1271,710,USA,North America,1,64,YEARS,41–64,2,Male,White,Y,4,White,1,Not Hispanic or Latino,Y,Y,2012-09-27,Treatment A,TrtA,Treatment A,TrtA,Treatment A,1,Treatment A,1,2012-09-27,00:00:00,2012-09-27,H,2012-11-21,2012-11-21 23:59:59,H,56.0,,,,,,,,,,,,2012-12-02,DISCONTINUED,
CDISCPILOT01,01-709-1424,1424,709,USA,North America,1,34,YEARS,18–40,1,Female,White,Y,4,White,1,Not Hispanic or Latino,Y,Y,2013-03-03,Treatment A,TrtA,Treatment A,TrtA,Treatment A,1,Treatment A,1,2013-03-03,00:00:00,2013-03-03,H,2013-03-07,2013-03-07 23:59:59,H,5.0,,,,,,,,,,,,2013-03-08,DISCONTINUED,
CDISCPILOT01,01-708-1297,1297,708,USA,North America,1,46,YEARS,41–64,2,Female,Asian,Y,4,White,1,Not Hispanic or Latino,Y,Y,2013-01-25,Treatment A,TrtA,Treatment A,TrtA,Treatment A,1,Treatment A,1,2013-01-25,00:00:00,2013-01-25,H,2013-05-03,2013-05-03 23:59:59,H,99.0,,,,,,,,,,,,2013-05-08,DISCONTINUED,
CDISCPILOT01,01-710-1354,1354,710,USA,North America,1,89,YEARS,65,3,Female,White,Y,4,White,1,Not Hispanic or Latino,Y,Y,2012-11-11,Treatment A,TrtA,Treatment A,TrtA,Treatment A,1,Treatment A,1,2012-11-11,00:00:00,2012-11-11,H,2013-05-01,2013-05-01 23:59:59,H,172.0,,,,,,,,,,,,2013-05-01,COMPLETED,
CDISCPILOT01,01-704-1017,1017,704,USA,North America,1,41,YEARS,41–64,2,Male,White,Y,4,White,1,Not Hispanic or Latino,Y,Y,2013-10-06,Treatment A,TrtA,Treatment A,TrtA,Treatment A,1,Treatment A,1,2013-10-06,00:00:00,2013-10-06,H,2013-11-18,2013-11-18 23:59:59,H,44.0,,,,,,,,,,,,2013-11-24,DISCONTINUED,
CDISCPILOT01,01-701-1203,1203,701,USA,North America,1,82,YEARS,65,3,Male,White,Y,3,Non-white,2,Not Hispanic or Latino,Y,Y,2013-02-02,Treatment B,TrtB,Treatment B,TrtB,Treatment B,2,Treatment B,2,2013-02-02,00:00:00,2013-02-02,H,2013-08-03,2013-08-03 23:59:59,H,183.0,,,,,,,,,,,,2013-08-03,COMPLETED,
CDISCPILOT01,01-718-1172,1172,718,USA,North America,1,68,YEARS,65,3,Male,White,Y,4,White,1,Not Hispanic or Latino,Y,Y,2013-09-21,Treatment A,TrtA,Treatment A,TrtA,Treatment A,1,Treatment A,1,2013-09-21,00:00:00,2013-09-21,H,2013-11-29,2013-11-29 23:59:59,H,70.0,,,,,,,,,,,,2013-11-29,DISCONTINUED,2014-03-21
CDISCPILOT01,01-709-1102,1102,709,USA,North America,1,92,YEARS,65,3,Female,White,Y,4,White,1,Not Hispanic or Latino,Y,Y,2013-01-15,Treatment A,TrtA,Treatment A,TrtA,Treatment A,1,Treatment A,1,2013-01-15,00:00:00,2013-01-15,H,2013-03-27,2013-03-27 23:59:59,H,72.0,,,,,,,,,,,,2013-03-31,DISCONTINUED,
CDISCPILOT01,01-705-1382,1382,705,USA,North America,1,84,YEARS,65,3,Female,White,Y,4,White,1,Not Hispanic or Latino,Y,Y,2013-05-13,Treatment A,TrtA,Treatment A,TrtA,Treatment A,1,Treatment A,1,2013-05-13,00:00:00,2013-05-13,H,,,,,,,,,,,,,,,,2013-05-13,DISCONTINUED,
CDISCPILOT01,01-709-1088,1088,709,USA,North America,1,92,YEARS,65,3,Female,White,Y,4,White,1,Not Hispanic or Latino,Y,Y,2014-04-12,Treatment A,TrtA,Treatment A,TrtA,Treatment A,1,Treatment A,1,2014-04-12,00:00:00,2014-04-12,H,2014-10-09,2014-10-09 23:59:59,H,181.0,,,,,,,,,,,,2014-10-09,COMPLETED,
CDISCPILOT01,01-715-1134,1134,715,USA,North America,1,56,YEARS,41–64,2,Female,White,,4,White,1,Not Hispanic or Latino,N,,,Treatment A,TrtA,Treatment A,TrtA,Treatment A,1,Treatment A,1,,,,,,,,,,,,,,,,,,,2014-04-17,,,
CDISCPILOT01,01-709-1339,1339,709,USA,North America,1,52,YEARS,41–64,2,Male,White,Y,4,White,1,Not Hispanic or Latino,Y,Y,2012-12-23,Treatment A,TrtA,Treatment A,TrtA,Treatment A,1,Treatment A,1,2012-12-23,00:00:00,2012-12-23,H,2013-06-24,2013-06-24 23:59:59,H,184.0,,,,,,,,,,,,2013-06-24,COMPLETED,
CDISCPILOT01,01-710-1300,1300,710,USA,North America,1,63,YEARS,41–64,2,Male,Black or African American,Y,4,White,1,Hispanic or Latino,Y,Y,2012-12-15,Treatment B,TrtB,Treatment B,TrtB,Treatment B,2,Treatment B,2,2012-12-15,00:00:00,2012-12-15,H,2013-02-15,2013-02-15 23:59:59,H,63.0,,,,,,,,,,,,2013-02-19,DISCONTINUED,
CDISCPILOT01,01-710-1149,1149,710,USA,North America,1,42,YEARS,41–64,2,Female,White,,4,White,1,Not Hispanic or Latino,N,,,Treatment B,TrtB,Treatment B,TrtB,Treatment B,2,Treatment B,2,,,,,,,,,,,,,,,,,,,2013-11-16,,,
CDISCPILOT01,01-716-1244,1244,716,USA,North America,1,70,YEARS,65,3,Male,White,,4,White,1,Not Hispanic or Latino,N,,,Treatment A,TrtA,Treatment A,TrtA,Treatment A,1,Treatment A,1,,,,,,,,,,,,,,,,,,,2013-08-15,,,
CDISCPILOT01,01-708-1316,1316,708,USA,North America,1,56,YEARS,41–64,2,Male,White,Y,4,White,1,Hispanic or Latino,Y,Y,2013-08-23,Treatment B,TrtB,Treatment B,TrtB,Treatment B,2,Treatment B,2,2013-08-23,00:00:00,2013-08-23,H,2014-03-01,2014-03-01 23:59:59,H,191.0,,,,,,,,,,,,2014-03-01,COMPLETED,
CDISCPILOT01,01-704-1008,1008,704,USA,North America,1,31,YEARS,18–40,1,Female,White,Y,4,White,1,Not Hispanic or Latino,Y,Y,2013-01-13,Treatment A,TrtA,Treatment A,TrtA,Treatment A,1,Treatment A,1,2013-01-13,00:00:00,2013-01-13,H,2013-02-21,2013-02-21 23:59:59,H,40.0,,,,,,,,,,,,2013-02-25,DISCONTINUED,
CDISCPILOT01,01-701-1411,1411,701,USA,North America,1,84,YEARS,65,3,Male,White,,3,Non-white,2,Not Hispanic or Latino,N,,,Treatment A,TrtA,Treatment A,TrtA,Treatment A,1,Treatment A,1,,,,,,,,,,,,,,,,,,,2012-11-14,,,
CDISCPILOT01,01-705-1349,1349,705,USA,North America,1,27,YEARS,18–40,1,Male,White,Y,4,White,1,Not Hispanic or Latino,Y,Y,2013-03-10,Treatment A,TrtA,Treatment A,TrtA,Treatment A,1,Treatment A,1,2013-03-10,00:00:00,2013-03-10,H,2013-09-08,2013-09-08 23:59:59,H,183.0,,,,,,,,,,,,2013-09-08,COMPLETED,
CDISCPILOT01,01-707-1430,1430,707,USA,North America,1,18,YEARS,18–40,1,Female,White,,4,White,1,Not Hispanic or Latino,N,,,Treatment A,TrtA,Treatment A,TrtA,Treatment A,1,Treatment A,1,,,,,,,,,,,,,,,,,,,2014-02-14,,,
CDISCPILOT01,01-701-1440,1440,701,USA,North America,1,85,YEARS,65,3,Male,Black or African American,Y,4,White,1,Not Hispanic or Latino,Y,Y,2013-08-08,Treatment B,TrtB,Treatment B,TrtB,Treatment B,2,Treatment B,2,2013-08-08,00:00:00,2013-08-08,H,2014-02-05,2014-02-05 23:59:59,H,182.0,,,,,,,,,,,,2014-02-05,COMPLETED,
CDISCPILOT01,01-701-1356,1356,701,USA,North America,1,35,YEARS,18–40,1,Male,White,,4,White,1,Hispanic or Latino,N,,,Treatment A,TrtA,Treatment A,TrtA,Treatment A,1,Treatment A,1,,,,,,,,,,,,,,,,,,,2014-04-01,,,
CDISCPILOT01,01-710-1408,1408,710,USA,North America,1,68,YEARS,65,3,Female,White,Y,4,White,1,Hispanic or Latino,Y,Y,2013-01-05,Treatment A,TrtA,Treatment A,TrtA,Treatment A,1,Treatment A,1,2013-01-05,00:00:00,2013-01-05,H,2013-07-12,2013-07-12 23:59:59,H,189.0,,,,,,,,,,,,2013-07-12,COMPLETED,
CDISCPILOT01,01-710-1380,1380,710,USA,North America,1,66,YEARS,65,3,Male,White,,4,White,1,Hispanic or Latino,N,,,Treatment A,TrtA,Treatment A,TrtA,Treatment A,1,Treatment A,1,,,,,,,,,,,,,,,,,,,2013-06-02,,,
CDISCPILOT01,01-704-1435,1435,704,USA,North America,1,54,YEARS,41–64,2,Male,Black or African American,Y,4,White,1,Not Hispanic or Latino,Y,Y,2012-11-17,Treatment A,TrtA,Treatment A,TrtA,Treatment A,1,Treatment A,1,2012-11-17,00:00:00,2012-11-17,H,2013-01-09,2013-01-09 23:59:59,H,54.0,,,,,,,,,,,,2013-01-12,DISCONTINUED,
CDISCPILOT01,01-710-1314,1314,710,USA,North America,1,84,YEARS,65,3,Male,White,Y,4,White,1,Not Hispanic or Latino,Y,Y,2013-04-24,Treatment A,TrtA,Treatment A,TrtA,Treatment A,1,Treatment A,1,2013-04-24,00:00:00,2013-04-24,H,2013-05-23,2013-05-23 23:59:59,H,30.0,,,,,,,,,,,,2013-05-25,DISCONTINUED,
CDISCPILOT01,01-709-1301,1301,709,USA,North America,1,89,YEARS,65,3,Female,American Indian or Alaska Native,Y,4,White,1,Not Hispanic or Latino,Y,Y,2013-07-19,Treatment A,TrtA,Treatment A,TrtA,Treatment A,1,Treatment A,1,2013-07-19,00:00:00,2013-07-19,H,2014-01-17,2014-01-17 23:59:59,H,183.0,,,,,,,,,,,,2014-01-17,COMPLETED,
CDISCPILOT01,01-711-1433,1433,711,USA,North America,1,61,YEARS,41–64,2,Male,White,Y,4,White,1,Hispanic or Latino,Y,Y,2013-01-27,Treatment B,TrtB,Treatment B,TrtB,Treatment B,2,Treatment B,2,2013-01-27,00:00:00,2013-01-27,H,2013-02-05,2013-02-05 23:59:59,H,10.0,,,,,,,,,,,,2013-02-06,DISCONTINUED,
CDISCPILOT01,01-714-1035,1035,714,USA,North America,1,93,YEARS,65,3,Female,White,Y,4,White,1,Hispanic or Latino,Y,Y,2014-04-17,Treatment A,TrtA,Treatment A,TrtA,Treatment A,1,Treatment A,1,2014-04-17,00:00:00,2014-04-17,H,2014-10-16,2014-10-16 23:59:59,H,183.0,,,,,,,,,,,,2014-10-16,COMPLETED,
CDISCPILOT01,01-718-1172,1172,718,USA,North America,1,89,YEARS,65,3,Male,White,Y,4,White,1,Not Hispanic or Latino,Y,Y,2013-09-21,Treatment B,TrtB,Treatment B,TrtB,Treatment B,2,Treatment B,2,2013-09-21,00:00:00,2013-09-21,H,2013-11-29,2013-11-29 23:59:59,H,70.0,,,,,,,,,,,,2013-11-29,DISCONTINUED,2014-03-21
CDISCPILOT01,01-701-1181,1181,701,USA,North America,1,21,YEARS,18–40,1,Female,White,Y,4,White,1,Not Hispanic or Latino,Y,Y,2013-12-05,Treatment B,TrtB,Treatment B,TrtB,Treatment B,2,Treatment B,2,2013-12-05,00:00:00,2013-12-05,H,2013-12-09,2013-12-09 23:59:59,H,5.0,,,,,,,,,,,,2013-12-12,DISCONTINUED,2014-05-23
CDISCPILOT01,01-701-1240,1240,701,USA,North America,1,64,YEARS,41–64,2,Female,White,,3,Non-white,2,Not Hispanic or Latino,N,,,Treatment B,TrtB,Treatment B,TrtB,Treatment B,2,Treatment B,2,,,,,,,,,,,,,,,,,,,2013-09-22,,,
CDISCPILOT01,01-710-1385,1385,710,USA,North America,1,95,YEARS,65,3,Male,Black or African American,Y,4,White,1,Not Hispanic or Latino,Y,Y,2012-10-29,Treatment A,TrtA,Treatment A,TrtA,Treatment A,1,Treatment A,1,2012-10-29,00:00:00,2012-10-29,H,2013-02-18,2013-02-18 23:59:59,H,113.0,,,,,,,,,,,,2013-02-18,DISCONTINUED,
CDISCPILOT01,01-713-1043,1043,713,USA,North America,1,82,YEARS,65,3,Male,White,Y,4,White,1,Not Hispanic or Latino,Y,Y,2013-09-15,Treatment B,TrtB,Treatment B,TrtB,Treatment B,2,Treatment B,2,2013-09-15,00:00:00,2013-09-15,H,2014-03-24,2014-03-24 23:59:59,H,191.0,,,,,,,,,,,,2014-03-24,COMPLETED,
CDISCPILOT01,01-710-1045,1045,710,USA,North America,1,64,YEARS,41–64,2,Female,Black or African American,Y,4,White,1,Not Hispanic or Latino,Y,Y,2013-06-03,Treatment B,TrtB,Treatment B,TrtB,Treatment B,2,Treatment B,2,2013-06-03,00:00:00,2013-06-03,H,2013-08-13,2013-08-13 23:59:59,H,72.0,,,,,,,,,,,,2013-08-17,DISCONTINUED,
CDISCPILOT01,01-713-1448,1448,713,USA,North America,1,78,YEARS,65,3,Female,White,Y,4,White,1,Not Hispanic or Latino,Y,Y,2014-01-19,Treatment A,TrtA,Treatment A,TrtA,Treatment A,1,Treatment A,1,2014-01-19,00:00:00,2014-01-19,H,2014-05-16,2014-05-16 23:59:59,H,118.0,,,,,,,,,,,,2014-05-17,DISCONTINUED,2014-07-27
CDISCPILOT01,01-709-1099,1099,709,USA,North America,1,70,YEARS,65,3,Male,White,Y,4,White,1,Not Hispanic or Latino,Y,Y,2013-10-25,Treatment A,TrtA,Treatment A,TrtA,Treatment A,1,Treatment A,1,2013-10-25,00:00:00,2013-10-25,H,2014-04-25,2014-04-25 23:59:59,H,183.0,,,,,,,,,,,,2014-04-25,COMPLETED,
CDISCPILOT01,01-710-1385,1385,710,USA,North America,1,68,YEARS,65,3,Female,American Indian or Alaska Native,Y,4,White,1,Hispanic or Latino,Y,Y,2012-10-29,Treatment B,TrtB,Treatment B,TrtB,Treatment B,2,Treatment B,2,2012-10-29,00:00:00,2012-10-29,H,2013-02-18,2013-02-18 23:59:59,H,113.0,,,,,,,,,,,,2013-02-18,DISCONTINUED,
CDISCPILOT01,01-701-1324,1324,701,USA,North America,1,63,YEARS,41–64,2,Female,White,Y,4,White,1,Not Hispanic or Latino,Y,Y,2012-10-02,Treatment B,TrtB,Treatment B,TrtB,Treatment B,2,Treatment B,2,2012-10-02,00:00:00,2012-10-02,H,2013-04-02,2013-04-02 23:59:59,H,183.0,,,,,,,,,,,,2013-04-02,COMPLETED,
CDISCPILOT01,01-710-1376,1376,710,USA,North America,1,80,YEARS,65,3,Female,White,,4,White,1,Not Hispanic or Latino,N,,,Treatment B,TrtB,Treatment B,TrtB,Treatment B,2,Treatment B,2,,,,,,,,,,,,,,,,,,,2014-04-21,,,
CDISCPILOT01,01-701-1360,1360,701,USA,North America,1,49,YEARS,41–64,2,Female,White,Y,4,White,1,Not Hispanic or Latino,Y,Y,2013-07-31,Treatment A,TrtA,Treatment A,TrtA,Treatment A,1,Treatment A,1,2013-07-31,00:00:00,2013-07-31,H,2013-08-05,2013-08-05 23:59:59,H,6.0,,,,,,,,,,,,2013-08-14,DISCONTINUED,2014-02-11
CDISCPILOT01,01-710-1264,1264,710,USA,North America,1,94,YEARS,65,3,Male,White,Y,4,White,1,Not Hispanic or Latino,Y,Y,2013-06-13,Treatment A,TrtA,Treatment A,TrtA,Treatment A,1,Treatment A,1,2013-06-13,00:00:00,2013-06-13,H,2013-10-11,2013-10-11 23:59:59,H,121.0,,,,,,,,,,,,2013-10-12,DISCONTINUED,
CDISCPILOT01,01-709-1237,1237,709,USA,North America,1,69,YEARS,65,3,Male,Black or African American,,4,White,1,Hispanic or Latino,N,,,Treatment A,TrtA,Treatment A,TrtA,Treatment A,1,Treatment A,1,,,,,,,,,,,,,,,,,,,2014-01-17,,,
CDISCPILOT01,01-709-1326,1326,709,USA,North America,1,34,YEARS,18–40,1,Male,White,Y,4,White,1,Hispanic or Latino,Y,Y,2013-04-05,Treatment A,TrtA,Treatment A,TrtA,Treatment A,1,Treatment A,1,2013-04-05,00:00:00,2013-04-05,H,2013-10-02,2013-10-02 23:59:59,H,181.0,,,,,,,,,,,,2013-10-02,COMPLETED,
CDISCPILOT01,01-704-1218,1218,704,USA,North America,1,71,YEARS,65,3,Female,Asian,Y,4,White,1,Hispanic or Latino,Y,Y,2012-11-19,Treatment B,TrtB,Treatment B,TrtB,Treatment B,2,Treatment B,2,2012-11-19,00:00:00,2012-11-19,H,2013-05-27,2013-05-27 23:59:59,H,190.0,,,,,,,,,,,,2013-05-27,COMPLETED,
CDISCPILOT01,01-711-1251,1251,711,USA,North America,1,58,YEARS,41–64,2,Male,White,,4,White,1,Not Hispanic or Latino,N,,,Treatment B,TrtB,Treatment B,TrtB,Treatment B,2,Treatment B,2,,,,,,,,,,,,,,,,,,,2014-02-28,,,
CDISCPILOT01,01-710-1257,1257,710,USA,North America,1,90,YEARS,65,3,Male,White,,4,White,1,Not Hispanic or Latino,N,,,Treatment A,TrtA,Treatment A,TrtA,Treatment A,1,Treatment A,1,,,,,,,,,,,,,,,,,,,2013-11-29,,,
CDISCPILOT01,01-703-1279,1279,703,USA,North America,1,50,YEARS,41–64,2,Female,White,Y,4,White,1,Not Hispanic or Latino,Y,Y,2013-05-13,Treatment B,TrtB,Treatment B,TrtB,Treatment B,2,Treatment B,2,2013-05-13,00:00:00,2013-05-13,H,2013-06-03,2013-06-03 23:59:59,H,22.0,,,,,,,,,,,,2013-06-22,DISCONTINUED,
CDISCPILOT01,01-711-1163,1163,711,USA,North America,1,47,YEARS,41–64,2,Female,White,,3,Non-white,2,Not Hispanic or Latino,N,,,Treatment A,TrtA,Treatment A,TrtA,Treatment A,1,Treatment A,1,,,,,,,,,,,,,,,,,,,2012-11-08,,,
CDISCPILOT01,01-704-1127,1127,704,USA,North America,1,69,YEARS,65,3,Male,White,Y,4,White,1,Hispanic or Latino,Y,Y,2013-10-02,Treatment B,TrtB,Treatment B,TrtB,Treatment B,2,Treatment B,2,2013-10-02,00:00:00,2013-10-02,H,2014-03-31,2014-03-31 23:59:59,H,181.0,,,,,,,,,,,,2014-03-31,COMPLETED,
CDISCPILOT01,01-705-1292,1292,705,USA,North America,1,49,YEARS,41–64,2,Female,White,Y,3,Non-white,2,Hispanic or Latino,Y,Y,2013-10-14,Treatment B,TrtB,Treatment B,TrtB,Treatment B,2,Treatment B,2,2013-10-14,00:00:00,2013-10-14,H,2014-05-13,2014-05-13 23:59:59,H,212.0,,,,,,,,,,,,2014-05-14,COMPLETED,
CDISCPILOT01,01-716-1418,1418,716,USA,North America,1,51,YEARS,41–64,2,Male,White,Y,4,White,1,Not Hispanic or Latino,Y,Y,2013-05-05,Treatment A,TrtA,Treatment A,TrtA,Treatment A,1,Treatment A,1,2013-05-05,00:00:00,2013-05-05,H,2013-11-20,2013-11-20 23:59:59,H,200.0,,,,,,,,,,,,2013-11-20,COMPLETED,
CDISCPILOT01,01-715-1333,1333,715,USA,North America,1,60,YEARS,41–64,2,Female,Asian,,4,White,1,Not Hispanic or Latino,N,,,Treatment B,TrtB,Treatment B,TrtB,Treatment B,2,Treatment B,2,,,,,,,,,,,,,,,,,,,2013-06-03,,,
CDISCPILOT01,01-710-1376,1376,710,USA,North America,1,22,YEARS,18–40,1,Female,White,,4,White,1,Not Hispanic or Latino,N,,,Treatment B,TrtB,Treatment B,TrtB,Treatment B,2,Treatment B,2,,,,,,,,,,,,,,,,,,,2014-04-21,,,
CDISCPILOT01,01-705-1349,1349,705,USA,North America,1,42,YEARS,41–64,2,Male,White,Y,4,White,1,Not Hispanic or Latino,Y,Y,2013-03-10,Treatment B,TrtB,Treatment B,TrtB,Treatment B,2,Treatment B,2,2013-03-10,00:00:00,2013-03-10,H,2013-09-08,2013-09-08 23:59:59,H,183.0,,,,,,,,,,,,2013-09-08,COMPLETED,
CDISCPILOT01,01-709-1217,1217,709,USA,North America,1,78,YEARS,65,3,Male,White,Y,4,White,1,Not Hispanic or Latino,Y,Y,2013-03-04,Treatment A,TrtA,Treatment A,TrtA,Treatment A,1,Treatment A,1,2013-03-04,00:00:00,2013-03-04,H,2013-06-11,2013-06-11 23:59:59,H,100.0,,,,,,,,,,,,2013-06-25,DISCONTINUED,
CDISCPILOT01,01-701-1146,1146,701,USA,North America,1,83,YEARS,65,3,Male,White,Y,4,White,1,Not Hispanic or Latino,Y,Y,2013-05-20,Treatment B,TrtB,Treatment B,TrtB,Treatment B,2,Treatment B,2,2013-05-20,00:00:00,2013-05-20,H,2013-06-26,2013-06-26 23:59:59,H,38.0,,,,,,,,,,,,2013-06-30,DISCONTINUED,
CDISCPILOT01,01-716-1151,1151,716,USA,North America,1,86,YEARS,65,3,Male,White,Y,4,White,1,Not Hispanic or Latino,Y,Y,2013-02-01,Treatment A,TrtA,Treatment A,TrtA,Treatment A,1,Treatment A,1,2013-02-01,00:00:00,2013-02-01,H,2013-05-11,2013-05-11 23:59:59,H,100.0,,,,,,,,,,,,2013-06-07,DISCONTINUED,2013-08-13
CDISCPILOT01,01-701-1111,1111,701,USA,North America,1,83,YEARS,65,3,Female,White,Y,4,White,1,Not Hispanic or Latino,Y,Y,2012-09-07,Treatment B,TrtB,Treatment B,TrtB,Treatment B,2,Treatment B,2,2012-09-07,00:00:00,2012-09-07,H,2012-09-16,2012-09-16 23:59:59,H,10.0,,,,,,,,,,,,2012-09-17,DISCONTINUED,2013-02-22
CDISCPILOT01,01-715-1155,1155,715,USA,North America,1,39,YEARS,18–40,1,Female,Asian,Y,4,White,1,Not Hispanic or Latino,Y,Y,2013-12-13,Treatment A,TrtA,Treatment A,TrtA,Treatment A,1,Treatment A,1,2013-12-13,00:00:00,2013-12-13,H,2014-01-25,2014-01-25 23:59:59,H,44.0,,,,,,,,,,,,2014-04-26,DISCONTINUED,
CDISCPILOT01,01-708-1184,1184,708,USA,North America,1,41,YEARS,41–64,2,Male,White,,4,White,1,Not Hispanic or Latino,N,,,Treatment B,TrtB,Treatment B,TrtB,Treatment B,2,Treatment B,2,,,,,,,,,,,,,,,,,,,2013-01-14,,,
CDISCPILOT01,01-710-1249,1249,710,USA,North America,1,31,YEARS,18–40,1,Female,White,Y,4,White,1,Not Hispanic or Latino,Y,Y,2013-12-28,Treatment A,TrtA,Treatment A,TrtA,Treatment A,1,Treatment A,1,2013-12-28,00:00:00,2013-12-28,H,2014-06-28,2014-06-28 23:59:59,H,183.0,,,,,,,,,,,,2014-06-28,COMPLETED,
CDISCPILOT01,01-705-1031,1031,705,USA,North America,1,63,YEARS,41–64,2,Male,White,Y,4,White,1,Not Hispanic or Latino,Y,Y,2013-11-27,Treatment A,TrtA,Treatment A,TrtA,Treatment A,1,Treatment A,1,2013-11-27,00:00:00,2013-11-27,H,2013-12-18,2013-12-18 23:59:59,H,22.0,,,,,,,,,,,,2014-05-11,DISCONTINUED,
CDISCPILOT01,01-701-1057,1057,701,USA,North America,1,64,YEARS,41–64,2,Male,White,,4,White,1,Not Hispanic or Latino,N,,,Treatment B,TrtB,Treatment B,TrtB,Treatment B,2,Treatment B,2,,,,,,,,,,,,,,,,,,,2013-12-20,,,
CDISCPILOT01,01-711-1283,1283,711,USA,North America,1,41,YEARS,41–64,2,Female,Native Hawaiian or other Pacific Islander,,3,Non-white,2,Not Hispanic or Latino,N,,,Treatment A,TrtA,Treatment A,TrtA,Treatment A,1,Treatment A,1,,,,,,,,,,,,,,,,,,,2014-03-27,,,
CDISCPILOT01,01-704-1135,1135,704,USA,North America,1,74,YEARS,65,3,Female,White,Y,4,White,1,Not Hispanic or Latino,Y,Y,2013-10-31,Treatment A,TrtA,Treatment A,TrtA,Treatment A,1,Treatment A,1,2013-10-31,00:00:00,2013-10-31,H,2014-05-16,2014-05-16 23:59:59,H,198.0,,,,,,,,,,,,2014-05-16,COMPLETED,
CDISCPILOT01,01-708-1297,1297,708,USA,North America,1,48,YEARS,41–64,2,Male,White,Y,4,White,1,Not Hispanic or Latino,Y,Y,2013-01-25,Treatment B,TrtB,Treatment B,TrtB,Treatment B,2,Treatment B,2,2013-01-25,00:00:00,2013-01-25,H,2013-05-03,2013-05-03 23:59:59,H,99.0,,,,,,,,,,,,2013-05-08,DISCONTINUED,
CDISCPILOT01,01-703-1439,1439,703,USA,North America,1,48,YEARS,41–64,2,Male,White,Y,4,White,1,Not Hispanic or Latino,Y,Y,2014-03-12,Treatment B,TrtB,Treatment B,TrtB,Treatment B,2,Treatment B,2,2014-03-12,00:00:00,2014-03-12,H,2014-09-11,2014-09-11 23:59:59,H,184.0,,,,,,,,,,,,2014-09-11,COMPLETED,
CDISCPILOT01,01-715-1225,1225,715,USA,North America,1,93,YEARS,65,3,Male,White,,4,White,1,Not Hispanic or Latino,N,,,Treatment B,TrtB,Treatment B,TrtB,Treatment B,2,Treatment B,2,,,,,,,,,,,,,,,,,,,2013-01-22,,,
CDISCPILOT01,01-701-1023,1023,701,USA,North America,1,60,YEARS,41–64,2,Male,Asian,Y,4,White,1,Not Hispanic or Latino,Y,Y,2012-08-05,Treatment B,TrtB,Treatment B,TrtB,Treatment B,2,Treatment B,2,2012-08-05,00:00:00,2012-08-05,H,2012-09-01,2012-09-01 23:59:59,H,28.0,,,,,,,,,,,,2012-09-02,DISCONTINUED,2013-02-18
CDISCPILOT01,01-704-1127,1127,704,USA,North America,1,70,YEARS,65,3,Female,White,Y,4,White,1,Not Hispanic or Latino,Y,Y,2013-10-02,Treatment A,TrtA,Treatment A,TrtA,Treatment A,1,Treatment A,1,2013-10-02,00:00:00,2013-10-02,H,2014-03-31,2014-03-31 23:59:59,H,181.0,,,,,,,,,,,,2014-03-31,COMPLETED,
CDISCPILOT01,01-710-1235,1235,710,USA,North America,1,53,YEARS,41–64,2,Male,White,Y,4,White,1,Not Hispanic or Latino,Y,Y,2012-09-26,Treatment B,TrtB,Treatment B,TrtB,Treatment B,2,Treatment B,2,2012-09-26,00:00:00,2012-09-26,H,2013-03-27,2013-03-27 23:59:59,H,183.0,,,,,,,,,,,,2013-03-27,COMPLETED,
CDISCPILOT01,01-716-1229,1229,716,USA,North America,1,68,YEARS,65,3,Female,White,Y,4,White,1,Not Hispanic or Latino,Y,Y,2013-02-20,Treatment A,TrtA,Treatment A,TrtA,Treatment A,1,Treatment A,1,2013-02-20,00:00:00,2013-02-20,H,2013-03-31,2013-03-31 23:59:59,H,40.0,,,,,,,,,,,,2013-04-02,DISCONTINUED,
CDISCPILOT01,01-708-1272,1272,708,USA,North America,1,74,YEARS,65,3,Male,White,Y,4,White,1,Not Hispanic or Latino,Y,Y,2013-02-06,Treatment A,TrtA,Treatment A,TrtA,Treatment A,1,Treatment A,1,2013-02-06,00:00:00,2013-02-06,H,2013-03-22,2013-03-22 23:59:59,H,45.0,,,,,,,,,,,,2013-04-04,DISCONTINUED,
CDISCPILOT01,01-715-1207,1207,715,USA,North America,1,48,YEARS,41–64,2,Female,White,Y,4,White,1,Not Hispanic or Latino,Y,Y,2012-11-18,Treatment A,TrtA,Treatment A,TrtA,Treatment A,1,Treatment A,1,2012-11-18,00:00:00,2012-11-18,H,2013-05-27,2013-05-27 23:59:59,H,191.0,,,,,,,,,,,,2013-06-01,COMPLETED,
CDISCPILOT01,01-704-1135,1135,704,USA,North America,1,64,YEARS,41–64,2,Male,White,Y,4,White,1,Not Hispanic or Latino,Y,Y,2013-10-31,Treatment B,TrtB,Treatment B,TrtB,Treatment B,2,Treatment B,2,2013-10-31,00:00:00,2013-10-31,H,2014-05-16,2014-05-16 23:59:59,H,198.0,,,,,,,,,,,,2014-05-16,COMPLETED,
CDISCPILOT01,01-716-1094,1094,716,USA,North America,1,60,YEARS,41–64,2,Female,Black or African American,Y,4,White,1,Not Hispanic or Latino,Y,Y,2012-12-19,Treatment B,TrtB,Treatment B,TrtB,Treatment B,2,Treatment B,2,2012-12-19,00:00:00,2012-12-19,H,2013-01-24,2013-01-24 23:59:59,H,37.0,,,,,,,,,,,,2013-01-26,DISCONTINUED,2013-06-22
CDISCPILOT01,01-703-1210,1210,703,USA,North America,1,55,YEARS,41–64,2,Male,Black or African American,Y,4,White,1,Not Hispanic or Latino,Y,Y,2013-03-16,Treatment A,TrtA,Treatment A,TrtA,Treatment A,1,Treatment A,1,2013-03-16,00:00:00,2013-03-16,H,2013-09-06,2013-09-06 23:59:59,H,175.0,,,,,,,,,,,,2013-09-06,COMPLETED,
CDISCPILOT01,01-710-1078,1078,710,USA,North America,1,86,YEARS,65,3,Male,White,Y,4,White,1,Not Hispanic or Latino,Y,Y,2013-09-17,Treatment B,TrtB,Treatment B,TrtB,Treatment B,2,Treatment B,2,2013-09-17,00:00:00,2013-09-17,H,2014-03-23,2014-03-23 23:59:59,H,188.0,,,,,,,,,,,,2014-03-23,COMPLETED,
CDISCPILOT01,01-701-1057,1057,701,USA,North America,1,95,YEARS,65,3,Male,White,,4,White,1,Not Hispanic or Latino,N,,,Treatment A,TrtA,Treatment A,TrtA,Treatment A,1,Treatment A,1,,,,,,,,,,,,,,,,,,,2013-12-20,,,
CDISCPILOT01,01-709-1306,1306,709,USA,North America,1,84,YEARS,65,3,Male,White,Y,4,White,1,Not Hispanic or Latino,Y,Y,2014-02-03,Treatment A,TrtA,Treatment A,TrtA,Treatment A,1,Treatment A,1,2014-02-03,00:00:00,2014-02-03,H,2014-06-16,2014-06-16 23:59:59,H,134.0,,,,,,,,,,,,2014-06-25,DISCONTINUED,
CDISCPILOT01,01-705-1281,1281,705,USA,North America,1,73,YEARS,65,3,Female,White,Y,3,Non-white,2,Not Hispanic or Latino,Y,Y,2013-11-28,Treatment B,TrtB,Treatment B,TrtB,Treatment B,2,Treatment B,2,2013-11-28,00:00:00,2013-11-28,H,2014-02-27,2014-02-27 23:59:59,H,92.0,,,,,,,,,,,,2014-03-17,DISCONTINUED,
CDISCPILOT01,01-710-1006,1006,710,USA,North America,1,94,YEARS,65,3,Male,White,Y,4,White,1,Not Hispanic or Latino,Y,Y,2013-02-10,Treatment A,TrtA,Treatment A,TrtA,Treatment A,1,Treatment A,1,2013-02-10,00:00:00,2013-02-10,H,2013-08-09,2013-08-09 23:59:59,H,181.0,,,,,,,,,,,,2013-08-10,COMPLETED,
CDISCPILOT01,01-705-1058,1058,705,USA,North America,1,88,YEARS,65,3,Male,White,,4,White,1,Not Hispanic or Latino,N,,,Treatment A,TrtA,Treatment A,TrtA,Treatment A,1,Treatment A,1,,,,,,,,,,,,,,,,,,,2013-12-02,,,
CDISCPILOT01,01-715-1134,1134,715,USA,North America,1,52,YEARS,41–64,2,Female,White,,4,White,1,Not Hispanic or Latino,N,,,Treatment B,TrtB,Treatment B,TrtB,Treatment B,2,Treatment B,2,,,,,,,,,,,,,,,,,,,2014-04-17,,,
CDISCPILOT01,01-704-1351,1351,704,USA,North America,1,54,YEARS,41–64,2,Male,White,Y,4,White,1,Not Hispanic or Latino,Y,Y,2013-10-12,Treatment A,TrtA,Treatment A,TrtA,Treatment A,1,Treatment A,1,2013-10-12,00:00:00,2013-10-12,H,2014-04-18,2014-04-18 23:59:59,H,189.0,,,,,,,,,,,,2014-04-18,COMPLETED,
CDISCPILOT01,01-704-1017,1017,704,USA,North America,1,60,YEARS,41–64,2,Female,White,Y,4,White,1,Not Hispanic or Latino,Y,Y,2013-10-06,Treatment B,TrtB,Treatment B,TrtB,Treatment B,2,Treatment B,2,2013-10-06,00:00:00,2013-10-06,H,2013-11-18,2013-11-18 23:59:59,H,44.0,,,,,,,,,,,,2013-11-24,DISCONTINUED,
CDISCPILOT01,01-701-1369,1369,701,USA,North America,1,41,YEARS,41–64,2,Male,White,,4,White,1,Not Hispanic or Latino,N,,,Treatment B,TrtB,Treatment B,TrtB,Treatment B,2,Treatment B,2,,,,,,,,,,,,,,,,,,,2013-09-18,,,
CDISCPILOT01,01-708-1236,1236,708,USA,North America,1,42,YEARS,41–64,2,Female,Asian,Y,4,White,1,Not Hispanic or Latino,Y,Y,2013-09-21,Treatment A,TrtA,Treatment A,TrtA,Treatment A,1,Treatment A,1,2013-09-21,00:00:00,2013-09-21,H,2013-09-21,2013-09-21 23:59:59,H,1.0,,,,,,,,,,,,2013-09-26,DISCONTINUED,
CDISCPILOT01,01-703-1403,1403,703,USA,North America,1,81,YEARS,65,3,Female,White,Y,4,White,1,Not Hispanic or Latino,Y,Y,2012-12-12,Treatment B,TrtB,Treatment B,TrtB,Treatment B,2,Treatment B,2,2012-12-12,00:00:00,2012-12-12,H,2012-12-13,2012-12-13 23:59:59,H,2.0,,,,,,,,,,,,2012-12-19,DISCONTINUED,
CDISCPILOT01,01-701-1203,1203,701,USA,North America,1,52,YEARS,41–64,2,Male,White,Y,3,Non-white,2,Not Hispanic or Latino,Y,Y,2013-02-02,Treatment A,TrtA,Treatment A,TrtA,Treatment A,1,Treatment A,1,2013-02-02,00:00:00,2013-02-02,H,2013-08-03,2013-08-03 23:59:59,H,183.0,,,,,,,,,,,,2013-08-03,COMPLETED,
CDISCPILOT01,01-704-1445,1445,704,USA,North America,1,68,YEARS,65,3,Male,White,Y,4,White,1,Not Hispanic or Latino,Y,Y,2014-05-11,Treatment B,TrtB,Treatment B,TrtB,Treatment B,2,Treatment B,2,2014-05-11,00:00:00,2014-05-11,H,2014-11-01,2014-11-01 23:59:59,H,175.0,2014-11-01,2014-11-01,,Y,175.0,0.0,COMPLETED SUICIDE,AE,ADVERSE EVENT,1.0,,2014-11-01,DISCONTINUED,
CDISCPILOT01,01-710-1077,1077,710,USA,North America,1,51,YEARS,41–64,2,Male,White,Y,4,White,1,Not Hispanic or Latino,Y,Y,2013-11-17,Treatment B,TrtB,Treatment B,TrtB,Treatment B,2,Treatment B,2,2013-11-17,00:00:00,2013-11-17,H,2014-05-18,2014-05-18 23:59:59,H,183.0,,,,,,,,,,,,2014-05-18,COMPLETED,
CDISCPILOT01,01-717-1174,1174,717,USA,North America,1,71,YEARS,65,3,Male,White,Y,4,White,1,Not Hispanic or Latino,Y,Y,2013-01-22,Treatment B,TrtB,Treatment B,TrtB,Treatment B,2,Treatment B,2,2013-01-22,00:00:00,2013-01-22,H,2013-07-24,2013-07-24 23:59:59,H,184.0,,,,,,,,,,,,2013-07-24,COMPLETED,
CDISCPILOT01,01-703-1379,1379,703,USA,North America,1,89,YEARS,65,3,Male,White,Y,3,Non-white,2,Not Hispanic or Latino,Y,Y,2013-09-22,Treatment B,TrtB,Treatment B,TrtB,Treatment B,2,Treatment B,2,2013-09-22,00:00:00,2013-09-22,H,2014-03-21,2014-03-21 23:59:59,H,181.0,,,,,,,,,,,,2014-03-21,COMPLETED,
CDISCPILOT01,01-703-1299,1299,703,USA,North America,1,94,YEARS,65,3,Male,White,Y,4,White,1,Not Hispanic or Latino,Y,Y,2012-09-12,Treatment B,TrtB,Treatment B,TrtB,Treatment B,2,Treatment B,2,2012-09-12,00:00:00,2012-09-12,H,2013-03-13,2013-03-13 23:59:59,H,183.0,,,,,,,,,,,,2013-03-13,COMPLETED,
CDISCPILOT01,01-711-1433,1433,711,USA,North America,1,54,YEARS,41–64,2,Female,White,Y,4,White,1,Not Hispanic or Latino,Y,Y,2013-01-27,Treatment A,TrtA,Treatment A,TrtA,Treatment A,1,Treatment A,1,2013-01-27,00:00:00,2013-01-27,H,2013-02-05,2013-02-05 23:59:59,H,10.0,,,,,,,,,,,,2013-02-06,DISCONTINUED,
CDISCPILOT01,01-701-1294,1294,701,USA,North America,1,55,YEARS,41–64,2,Female,White,Y,4,White,1,Not Hispanic or Latino,Y,Y,2013-03-24,Treatment B,TrtB,Treatment B,TrtB,Treatment B,2,Treatment B,2,2013-03-24,00:00:00,2013-03-24,H,2013-06-14,2013-06-14 23:59:59,H,83.0,,,,,,,,,,,,2013-06-14,DISCONTINUED,2013-10-08
CDISCPILOT01,01-701-1180,1180,701,USA,North America,1,29,YEARS,18–40,1,Male,White,Y,4,White,1,Not Hispanic or Latino,Y,Y,2013-02-12,Treatment A,TrtA,Treatment A,TrtA,Treatment A,1,Treatment A,1,2013-02-12,00:00:00,2013-02-12,H,2013-03-18,2013-03-18 23:59:59,H,35.0,,,,,,,,,,,,2013-03-23,DISCONTINUED,
CDISCPILOT01,01-717-1174,1174,717,USA,North America,1,38,YEARS,18–40,1,Male,White,Y,4,White,1,Not Hispanic or Latino,Y,Y,2013-01-22,Treatment A,TrtA,Treatment A,TrtA,Treatment A,1,Treatment A,1,2013-01-22,00:00:00,2013-01-22,H,2013-07-24,2013-07-24 23:59:59,H,184.0,,,,,,,,,,,,2013-07-24,COMPLETED,
CDISCPILOT01,01-714-1035,1035,714,USA,North America,1,91,YEARS,65,3,Female,White,Y,4,White,1,Hispanic or Latino,Y,Y,2014-04-17,Treatment A,TrtA,Treatment A,TrtA,Treatment A,1,Treatment A,1,2014-04-17,00:00:00,2014-04-17,H,2014-10-16,2014-10-16 23:59:59,H,183.0,,,,,,,,,,,,2014-10-16,COMPLETED,
CDISCPILOT01,01-701-1188,1188,701,USA,North America,1,67,YEARS,65,3,Male,White,Y,4,White,1,Not Hispanic or Latino,Y,Y,2013-02-15,Treatment B,TrtB,Treatment B,TrtB,Treatment B,2,Treatment B,2,2013-02-15,00:00:00,2013-02-15,H,2013-03-24,2013-03-24 23:59:59,H,38.0,,,,,,,,,,,,2013-03-25,DISCONTINUED,2013-08-04
CDISCPILOT01,01-713-1269,1269,713,USA,North America,1,84,YEARS,65,3,Female,White,Y,4,White,1,Not Hispanic or Latino,Y,Y,2014-01-27,Treatment A,TrtA,Treatment A,TrtA,Treatment A,1,Treatment A,1,2014-01-27,00:00:00,2014-01-27,H,2014-07-28,2014-07-28 23:59:59,H,183.0,,,,,,,,,,,,2014-07-28,COMPLETED,
CDISCPILOT01,01-701-1015,1015,701,USA,North America,1,40,YEARS,18–40,1,Female,Asian,Y,4,White,1,Hispanic or Latino,Y,Y,2014-01-02,Treatment B,TrtB,Treatment B,TrtB,Treatment B,2,Treatment B,2,2014-01-02,00:00:00,2014-01-02,H,2014-07-02,2014-07-02 23:59:59,H,182.0,,,,,,,,,,,,2014-07-02,COMPLETED,
CDISCPILOT01,01-701-1383,1383,701,USA,North America,1,46,YEARS,41–64,2,Male,Native Hawaiian or other Pacific Islander,Y,4,White,1,Not Hispanic or Latino,Y,Y,2013-02-04,Treatment B,TrtB,Treatment B,TrtB,Treatment B,2,Treatment B,2,2013-02-04,00:00:00,2013-02-04,H,2013-08-06,2013-08-06 23:59:59,H,184.0,,,,,,,,,,,,2013-08-06,COMPLETED,
CDISCPILOT01,01-715-1405,1405,715,USA,North America,1,47,YEARS,41–64,2,Female,White,Y,4,White,1,Not Hispanic or Latino,Y,Y,2013-07-06,Treatment B,TrtB,Treatment B,TrtB,Treatment B,2,Treatment B,2,2013-07-06,00:00:00,2013-07-06,H,2013-07-07,2013-07-07 23:59:59,H,2.0,,,,,,,,,,,,2013-07-13,DISCONTINUED,2014-01-11
CDISCPILOT01,01-705-1281,1281,705,USA,North America,1,68,YEARS,65,3,Female,White,Y,3,Non-white,2,Not Hispanic or Latino,Y,Y,2013-11-28,Treatment B,TrtB,Treatment B,TrtB,Treatment B,2,Treatment B,2,2013-11-28,00:00:00,2013-11-28,H,2014-02-27,2014-02-27 23:59:59,H,92.0,,,,,,,,,,,,2014-03-17,DISCONTINUED,
CDISCPILOT01,01-704-1435,1435,704,USA,North America,1,69,YEARS,65,3,Female,White,Y,4,White,1,Not Hispanic or Latino,Y,Y,2012-11-17,Treatment B,TrtB,Treatment B,TrtB,Treatment B,2,Treatment B,2,2012-11-17,00:00:00,2012-11-17,H,2013-01-09,2013-01-09 23:59:59,H,54.0,,,,,,,,,,,,2013-01-12,DISCONTINUED,
CDISCPILOT01,01-710-1149,1149,710,USA,North America,1,81,YEARS,65,3,Female,Black or African American,,4,White,1,Not Hispanic or Latino,N,,,Treatment B,TrtB,Treatment B,TrtB,Treatment B,2,Treatment B,2,,,,,,,,,,,,,,,,,,,2013-11-16,,,
CDISCPILOT01,01-708-1253,1253,708,USA,North America,1,32,YEARS,18–40,1,Male,White,Y,4,White,1,Not Hispanic or Latino,Y,Y,2013-05-07,Treatment B,TrtB,Treatment B,TrtB,Treatment B,2,Treatment B,2,2013-05-07,00:00:00,2013-05-07,H,2013-11-05,2013-11-05 23:59:59,H,183.0,,,,,,,,,,,,2013-11-05,COMPLETED,
CDISCPILOT01,01-717-1344,1344,717,USA,North America,1,40,YEARS,18–40,1,Male,Asian,Y,4,White,1,Not Hispanic or Latino,Y,Y,2014-01-11,Treatment A,TrtA,Treatment A,TrtA,Treatment A,1,Treatment A,1,2014-01-11,00:00:00,2014-01-11,H,2014-03-14,2014-03-14 23:59:59,H,63.0,,,,,,,,,,,,2014-03-14,DISCONTINUED,
CDISCPILOT01,01-701-1234,1234,701,USA,North America,1,55,YEARS,41–64,2,Male,White,Y,4,White,1,Not Hispanic or Latino,Y,Y,2013-03-30,Treatment A,TrtA,Treatment A,TrtA,Treatment A,1,Treatment A,1,2013-03-30,00:00:00,2013-03-30,H,2013-09-22,2013-09-22 23:59:59,H,177.0,,,,,,,,,,,,2013-09-22,COMPLETED,
CDISCPILOT01,01-703-1096,1096,703,USA,North America,1,94,YEARS,65,3,Female,White,Y,4,White,1,Not Hispanic or Latino,Y,Y,2013-01-25,Treatment A,TrtA,Treatment A,TrtA,Treatment A,1,Treatment A,1,2013-01-25,00:00:00,2013-01-25,H,2013-03-16,2013-03-16 23:59:59,H,51.0,,,,,,,,,,,,2013-03-29,DISCONTINUED,
CDISCPILOT01,01-710-1385,1385,710,USA,North America,1,83,YEARS,65,3,Female,White,Y,4,White,1,Not Hispanic or Latino,Y,Y,2012-10-29,Treatment B,TrtB,Treatment B,TrtB,Treatment B,2,Treatment B,2,2012-10-29,00:00:00,2012-10-29,H,2013-02-18,2013-02-18 23:59:59,H,113.0,,,,,,,,,,,,2013-02-18,DISCONTINUED,
CDISCPILOT01,01-717-1446,1446,717,USA,North America,1,35,YEARS,18–40,1,Male,White,Y,4,White,1,Not Hispanic or Latino,Y,Y,2013-09-01,Treatment A,TrtA,Treatment A,TrtA,Treatment A,1,Treatment A,1,2013-09-01,00:00:00,2013-09-01,H,2014-03-03,2014-03-03 23:59:59,H,184.0,,,,,,,,,,,,2014-03-04,COMPLETED,
CDISCPILOT01,01-704-1164,1164,704,USA,North America,1,44,YEARS,41–64,2,Male,Black or African American,Y,4,White,1,Not Hispanic or Latino,Y,Y,2012-09-19,Treatment A,TrtA,Treatment A,TrtA,Treatment A,1,Treatment A,1,2012-09-19,00:00:00,2012-09-19,H,2013-04-04,2013-04-04 23:59:59,H,198.0,,,,,,,,,,,,2013-04-04,COMPLETED,
CDISCPILOT01,01-703-1299,1299,703,USA,North America,1,72,YEARS,65,3,Male,White,Y,4,White,1,Not Hispanic or Latino,Y,Y,2012-09-12,Treatment A,TrtA,Treatment A,TrtA,Treatment A,1,Treatment A,1,2012-09-12,00:00:00,2012-09-12,H,2013-03-13,2013-03-13 23:59:59,H,183.0,,,,,,,,,,,,2013-03-13,COMPLETED,
CDISCPILOT01,01-708-1216,1216,708,USA,North America,1,27,YEARS,18–40,1,Female,White,Y,4,White,1,Not Hispanic or Latino,Y,Y,2012-10-24,Treatment A,TrtA,Treatment A,TrtA,Treatment A,1,Treatment A,1,2012-10-24,00:00:00,2012-10-24,H,2012-11-29,2012-11-29 23:59:59,H,37.0,,,,,,,,,,,,2012-12-06,DISCONTINUED,
CDISCPILOT01,01-704-1120,1120,704,USA,North America,1,48,YEARS,41–64,2,Male,White,Y,4,White,1,Not Hispanic or Latino,Y,Y,2013-12-02,Treatment A,TrtA,Treatment A,TrtA,Treatment A,1,Treatment A,1,2013-12-02,00:00:00,2013-12-02,H,2014-02-01,2014-02-01 23:59:59,H,62.0,,,,,,,,,,,,2014-02-03,DISCONTINUED,
CDISCPILOT01,01-710-1070,1070,710,USA,North America,1,78,YEARS,65,3,Female,White,Y,4,White,1,Not Hispanic or Latino,Y,Y,2012-09-08,Treatment B,TrtB,Treatment B,TrtB,Treatment B,2,Treatment B,2,2012-09-08,00:00:00,2012-09-08,H,2013-01-22,2013-01-22 23:59:59,H,137.0,,,,,,,,,,,,2013-02-23,DISCONTINUED,
CDISCPILOT01,01-718-1254,1254,718,USA,North America,1,42,YEARS,41–64,2,Female,White,Y,4,White,1,Not Hispanic or Latino,Y,Y,2013-07-10,Treatment B,TrtB,Treatment B,TrtB,Treatment B,2,Treatment B,2,2013-07-10,00:00:00,2013-07-10,H,2014-01-09,2014-01-09 23:59:59,H,184.0,,,,,,,,,,,,2014-01-09,COMPLETED,
CDISCPILOT01,01-701-1324,1324,701,USA,North America,1,65,YEARS,65,3,Female,White,Y,4,White,1,Not Hispanic or Latino,Y,Y,2012-10-02,Treatment B,TrtB,Treatment B,TrtB,Treatment B,2,Treatment B,2,2012-10-02,00:00:00,2012-10-02,H,2013-04-02,2013-04-02 23:59:59,H,183.0,,,,,,,,,,,,2013-04-02,COMPLETED,
CDISCPILOT01,01-701-1015,1015,701,USA,North America,1,64,YEARS,41–64,2,Male,White,Y,4,White,1,Not Hispanic or Latino,Y,Y,2014-01-02,Treatment B,TrtB,Treatment B,TrtB,Treatment B,2,Treatment B,2,2014-01-02,00:00:00,2014-01-02,H,2014-07-02,2014-07-02 23:59:59,H,182.0,,,,,,,,,,,,2014-07-02,COMPLETED,
CDISCPILOT01,01-715-1407,1407,715,USA,North America,1,85,YEARS,65,3,Male,Black or African American,,4,White,1,Not Hispanic or Latino,N,,,Treatment A,TrtA,Treatment A,TrtA,Treatment A,1,Treatment A,1,,,,,,,,,,,,,,,,,,,2012-10-24,,,
CDISCPILOT01,01-716-1151,1151,716,USA,North America,1,82,YEARS,65,3,Female,Black or African American,Y,4,White,1,Not Hispanic or Latino,Y,Y,2013-02-01,Treatment B,TrtB,Treatment B,TrtB,Treatment B,2,Treatment B,2,2013-02-01,00:00:00,2013-02-01,H,2013-05-11,2013-05-11 23:59:59,H,100.0,,,,,,,,,,,,2013-06-07,DISCONTINUED,2013-08-13
CDISCPILOT01,01-708-1171,1171,708,USA,North America,1,85,YEARS,65,3,Female,White,Y,4,White,1,Hispanic or Latino,Y,Y,2012-12-06,Treatment B,TrtB,Treatment B,TrtB,Treatment B,2,Treatment B,2,2012-12-06,00:00:00,2012-12-06,H,2013-06-04,2013-06-04 23:59:59,H,181.0,,,,,,,,,,,,2013-06-04,COMPLETED,
CDISCPILOT01,01-705-1349,1349,705,USA,North America,1,76,YEARS,65,3,Female,American Indian or Alaska Native,Y,4,White,1,Not Hispanic or Latino,Y,Y,2013-03-10,Treatment A,TrtA,Treatment A,TrtA,Treatment A,1,Treatment A,1,2013-03-10,00:00:00,2013-03-10,H,2013-09-08,2013-09-08 23:59:59,H,183.0,,,,,,,,,,,,2013-09-08,COMPLETED,
CDISCPILOT01,01-701-1239,1239,701,USA,North America,1,78,YEARS,65,3,Male,Black or African American,Y,4,White,1,Not Hispanic or Latino,Y,Y,2014-01-11,Treatment B,TrtB,Treatment B,TrtB,Treatment B,2,Treatment B,2,2014-01-11,00:00:00,2014-01-11,H,2014-07-10,2014-07-10 23:59:59,H,181.0,,,,,,,,,,,,2014-07-11,COMPLETED,
CDISCPILOT01,01-710-1443,1443,710,USA,North America,1,75,YEARS,65,3,Male,Native Hawaiian or other Pacific Islander,,4,White,1,Not Hispanic or Latino,N,,,Treatment B,TrtB,Treatment B,TrtB,Treatment B,2,Treatment B,2,,,,,,,,,,,,,,,,,,,2013-12-13,,,
CDISCPILOT01,01-701-1130,1130,701,USA,North America,1,66,YEARS,65,3,Female,White,Y,4,White,1,Not Hispanic or Latino,Y,Y,2014-02-15,Treatment B,TrtB,Treatment B,TrtB,Treatment B,2,Treatment B,2,2014-02-15,00:00:00,2014-02-15,H,2014-08-16,2014-08-16 23:59:59,H,183.0,,,,,,,,,,,,2014-08-16,COMPLETED,
CDISCPILOT01,01-713-1043,1043,713,USA,North America,1,73,YEARS,65,3,Male,White,Y,4,White,1,Not Hispanic or Latino,Y,Y,2013-09-15,Treatment B,TrtB,Treatment B,TrtB,Treatment B,2,Treatment B,2,2013-09-15,00:00:00,2013-09-15,H,2014-03-24,2014-03-24 23:59:59,H,191.0,,,,,,,,,,,,2014-03-24,COMPLETED,
CDISCPILOT01,01-718-1371,1371,718,USA,North America,1,71,YEARS,65,3,Female,White,Y,4,White,1,Hispanic or Latino,Y,Y,2013-04-26,Treatment A,TrtA,Treatment A,TrtA,Treatment A,1,Treatment A,1,2013-04-26,00:00:00,2013-04-26,H,2013-08-01,2013-08-01 23:59:59,H,98.0,,,,,,,,,,,,2013-08-08,DISCONTINUED,
CDISCPILOT01,01-708-1104,1104,708,USA,North America,1,42,YEARS,41–64,2,Male,White,,2,Non-white,2,Not Hispanic or Latino,N,,,Treatment B,TrtB,Treatment B,TrtB,Treatment B,2,Treatment B,2,,,,,,,,,,,,,,,,,,,2014-01-23,,,
CDISCPILOT01,01-708-1297,1297,708,USA,North America,1,73,YEARS,65,3,Female,Asian,Y,4,White,1,Not Hispanic or Latino,Y,Y,2013-01-25,Treatment B,TrtB,Treatment B,TrtB,Treatment B,2,Treatment B,2,2013-01-25,00:00:00,2013-01-25,H,2013-05-03,2013-05-03 23:59:59,H,99.0,,,,,,,,,,,,2013-05-08,DISCONTINUED,
CDISCPILOT01,01-703-1258,1258,703,USA,North America,1,79,YEARS,65,3,Female,White,Y,4,White,1,Not Hispanic or Latino,Y,Y,2012-07-20,Treatment A,TrtA,Treatment A,TrtA,Treatment A,1,Treatment A,1,2012-07-20,00:00:00,2012-07-20,H,2013-01-11,2013-01-11 23:59:59,H,176.0,,,,,,,,,,,,2013-01-21,DISCONTINUED,
CDISCPILOT01,01-704-1325,1325,704,USA,North America,1,31,YEARS,18–40,1,Female,White,Y,4,White,1,Not Hispanic or Latino,Y,Y,2014-04-23,Treatment B,TrtB,Treatment B,TrtB,Treatment B,2,Treatment B,2,2014-04-23,00:00:00,2014-04-23,H,2014-07-04,2014-07-04 23:59:59,H,73.0,,,,,,,,,,,,2014-08-06,DISCONTINUED,
CDISCPILOT01,01-701-1444,1444,701,USA,North America,1,84,YEARS,65,3,Male,White,Y,4,White,1,Not Hispanic or Latino,Y,Y,2013-01-05,Treatment A,TrtA,Treatment A,TrtA,Treatment A,1,Treatment A,1,2013-01-05,00:00:00,2013-01-05,H,2013-02-12,2013-02-12 23:59:59,H,39.0,,,,,,,,,,,,2013-02-13,DISCONTINUED,2013-06-20
CDISCPILOT01,01-710-1385,1385,710,USA,North America,1,94,YEARS,65,3,Male,Native Hawaiian or other Pacific Islander,Y,4,White,1,Not Hispanic or Latino,Y,Y,2012-10-29,Treatment B,TrtB,Treatment B,TrtB,Treatment B,2,Treatment B,2,2012-10-29,00:00:00,2012-10-29,H,2013-02-18,2013-02-18 23:59:59,H,113.0,,,,,,,,,,,,2013-02-18,DISCONTINUED,
CDISCPILOT01,01-711-1433,1433,711,USA,North America,1,54,YEARS,41–64,2,Male,White,Y,4,White,1,Not Hispanic or Latino,Y,Y,2013-01-27,Treatment A,TrtA,Treatment A,TrtA,Treatment A,1,Treatment A,1,2013-01-27,00:00:00,2013-01-27,H,2013-02-05,2013-02-05 23:59:59,H,10.0,,,,,,,,,,,,2013-02-06,DISCONTINUED,
CDISCPILOT01,01-716-1189,1189,716,USA,North America,1,71,YEARS,65,3,Female,White,Y,4,White,1,Not Hispanic or Latino,Y,Y,2012-10-09,Treatment A,TrtA,Treatment A,TrtA,Treatment A,1,Treatment A,1,2012-10-09,00:00:00,2012-10-09,H,2013-02-27,2013-02-27 23:59:59,H,142.0,,,,,,,,,,,,2013-03-03,DISCONTINUED,2013-04-08
CDISCPILOT01,01-710-1077,1077,710,USA,North America,1,36,YEARS,18–40,1,Female,White,Y,4,White,1,Not Hispanic or Latino,Y,Y,2013-11-17,Treatment A,TrtA,Treatment A,TrtA,Treatment A,1,Treatment A,1,2013-11-17,00:00:00,2013-11-17,H,2014-05-18,2014-05-18 23:59:59,H,183.0,,,,,,,,,,,,2014-05-18,COMPLETED,
CDISCPILOT01,01-711-1036,1036,711,USA,North America,1,86,YEARS,65,3,Male,White,Y,3,Non-white,2,Not Hispanic or Latino,Y,Y,2012-07-29,Treatment A,TrtA,Treatment A,TrtA,Treatment A,1,Treatment A,1,2012-07-29,00:00:00,2012-07-29,H,2013-02-10,2013-02-10 23:59:59,H,197.0,,,,,,,,,,,,2013-02-10,COMPLETED,
CDISCPILOT01,01-716-1373,1373,716,USA,North America,1,74,YEARS,65,3,Male,White,Y,4,White,1,Not Hispanic or Latino,Y,Y,2012-12-14,Treatment A,TrtA,Treatment A,TrtA,Treatment A,1,Treatment A,1,2012-12-14,00:00:00,2012-12-14,H,2013-02-27,2013-02-27 23:59:59,H,76.0,,,,,,,,,,,,2013-02-28,DISCONTINUED,
CDISCPILOT01,01-709-1007,1007,709,USA,North America,1,81,YEARS,65,3,Male,Black or African American,Y,4,White,1,Not Hispanic or Latino,Y,Y,2012-07-31,Treatment B,TrtB,Treatment B,TrtB,Treatment B,2,Treatment B,2,2012-07-31,00:00:00,2012-07-31,H,2012-08-28,2012-08-28 23:59:59,H,29.0,,,,,,,,,,,,2012-09-01,DISCONTINUED,
CDISCPILOT01,01-711-1290,1290,711,USA,North America,1,61,YEARS,41–64,2,Male,White,,4,White,1,Not Hispanic or Latino,N,,,Treatment A,TrtA,Treatment A,TrtA,Treatment A,1,Treatment A,1,,,,,,,,,,,,,,,,,,,2013-12-20,,,
CDISCPILOT01,01-711-1163,1163,711,USA,North America,1,43,YEARS,41–64,2,Male,Black or African American,,3,Non-white,2,Not Hispanic or Latino,N,,,Treatment B,TrtB,Treatment B,TrtB,Treatment B,2,Treatment B,2,,,,,,,,,,,,,,,,,,,2012-11-08,,,
CDISCPILOT01,01-710-1271,1271,710,USA,North America,1,77,YEARS,65,3,Male,Asian,Y,4,White,1,Not Hispanic or Latino,Y,Y,2012-09-27,Treatment A,TrtA,Treatment A,TrtA,Treatment A,1,Treatment A,1,2012-09-27,00:00:00,2012-09-27,H,2012-11-21,2012-11-21 23:59:59,H,56.0,,,,,,,,,,,,2012-12-02,DISCONTINUED,
CDISCPILOT01,01-708-1171,1171,708,USA,North America,1,70,YEARS,65,3,Male,White,Y,4,White,1,Not Hispanic or Latino,Y,Y,2012-12-06,Treatment B,TrtB,Treatment B,TrtB,Treatment B,2,Treatment B,2,2012-12-06,00:00:00,2012-12-06,H,2013-06-04,2013-06-04 23:59:59,H,181.0,,,,,,,,,,,,2013-06-04,COMPLETED,
CDISCPILOT01,01-704-1445,1445,704,USA,North America,1,22,YEARS,18–40,1,Male,White,Y,4,White,1,Not Hispanic or Latino,Y,Y,2014-05-11,Treatment A,TrtA,Treatment A,TrtA,Treatment A,1,Treatment A,1,2014-05-11,00:00:00,2014-05-11,H,2014-11-01,2014-11-01 23:59:59,H,175.0,2014-11-01,2014-11-01,,Y,175.0,0.0,COMPLETED SUICIDE,AE,ADVERSE EVENT,1.0,,2014-11-01,DISCONTINUED,
CDISCPILOT01,01-715-1085,1085,715,USA,North America,1,25,YEARS,18–40,1,Male,White,Y,4,White,1,Not Hispanic or Latino,Y,Y,2013-02-16,Treatment A,TrtA,Treatment A,TrtA,Treatment A,1,Treatment A,1,2013-02-16,00:00:00,2013-02-16,H,2013-08-18,2013-08-18 23:59:59,H,184.0,,,,,,,,,,,,2013-08-18,COMPLETED,
CDISCPILOT01,01-714-1068,1068,714,USA,North America,1,61,YEARS,41–64,2,Female,Asian,Y,4,White,1,Not Hispanic or Latino,Y,Y,2013-08-08,Treatment B,TrtB,Treatment B,TrtB,Treatment B,2,Treatment B,2,2013-08-08,00:00:00,2013-08-08,H,2013-10-08,2013-10-08 23:59:59,H,62.0,,,,,,,,,,,,2013-10-16,DISCONTINUED,
CDISCPILOT01,01-704-1260,1260,704,USA,North America,1,66,YEARS,65,3,Female,Asian,Y,4,White,1,Not Hispanic or Latino,Y,Y,2012-08-30,Treatment A,TrtA,Treatment A,TrtA,Treatment A,1,Treatment A,1,2012-08-30,00:00:00,2012-08-30,H,2012-11-04,2012-11-04 23:59:59,H,67.0,,,,,,,,,,,,2013-01-18,DISCONTINUED,
CDISCPILOT01,01-705-1282,1282,705,USA,North America,1,77,YEARS,65,3,Male,White,Y,3,Non-white,2,Not Hispanic or Latino,Y,Y,2012-12-26,Treatment A,TrtA,Treatment A,TrtA,Treatment A,1,Treatment A,1,2012-12-26,00:00:00,2012-12-26,H,2013-06-24,2013-06-24 23:59:59,H,181.0,,,,,,,,,,,,2013-06-24,COMPLETED,
CDISCPILOT01,01-718-1254,1254,718,USA,North America,1,51,YEARS,41–64,2,Male,White,Y,4,White,1,Not Hispanic or Latino,Y,Y,2013-07-10,Treatment A,TrtA,Treatment A,TrtA,Treatment A,1,Treatment A,1,2013-07-10,00:00:00,2013-07-10,H,2014-01-09,2014-01-09 23:59:59,H,184.0,,,,,,,,,,,,2014-01-09,COMPLETED,
CDISCPILOT01,01-701-1369,1369,701,USA,North America,1,79,YEARS,65,3,Female,Asian,,4,White,1,Not Hispanic or Latino,N,,,Treatment A,TrtA,Treatment A,TrtA,Treatment A,1,Treatment A,1,,,,,,,,,,,,,,,,,,,2013-09-18,,,
CDISCPILOT01,01-710-1183,1183,710,USA,North America,1,46,YEARS,41–64,2,Female,White,Y,4,White,1,Not Hispanic or Latino,Y,Y,2013-11-16,Treatment A,TrtA,Treatment A,TrtA,Treatment A,1,Treatment A,1,2013-11-16,00:00:00,2013-11-16,H,2014-05-17,2014-05-17 23:59:59,H,183.0,,,,,,,,,,,,2014-05-17,COMPLETED,
CDISCPILOT01,01-704-1017,1017,704,USA,North America,1,87,YEARS,65,3,Female,American Indian or Alaska Native,Y,4,White,1,Not Hispanic or Latino,Y,Y,2013-10-06,Treatment A,TrtA,Treatment A,TrtA,Treatment A,1,Treatment A,1,2013-10-06,00:00:00,2013-10-06,H,2013-11-18,2013-11-18 23:59:59,H,44.0,,,,,,,,,,,,2013-11-24,DISCONTINUED,
CDISCPILOT01,01-703-1096,1096,703,USA,North America,1,53,YEARS,41–64,2,Male,Asian,Y,4,White,1,Not Hispanic or Latino,Y,Y,2013-01-25,Treatment B,TrtB,Treatment B,TrtB,Treatment B,2,Treatment B,2,2013-01-25,00:00:00,2013-01-25,H,2013-03-16,2013-03-16 23:59:59,H,51.0,,,,,,,,,,,,2013-03-29,DISCONTINUED,
CDISCPILOT01,01-708-1253,1253,708,USA,North America,1,79,YEARS,65,3,Female,White,Y,4,White,1,Not Hispanic or Latino,Y,Y,2013-05-07,Treatment B,TrtB,Treatment B,TrtB,Treatment B,2,Treatment B,2,2013-05-07,00:00:00,2013-05-07,H,2013-11-05,2013-11-05 23:59:59,H,183.0,,,,,,,,,,,,2013-11-05,COMPLETED,
CDISCPILOT01,01-705-1393,1393,705,USA,North America,1,50,YEARS,41–64,2,Female,White,Y,4,White,1,Not Hispanic or Latino,Y,Y,2012-09-07,Treatment B,TrtB,Treatment B,TrtB,Treatment B,2,Treatment B,2,2012-09-07,00:00:00,2012-09-07,H,2013-02-01,2013-02-01 23:59:59,H,148.0,,,,,,,,,,,,2013-02-20,DISCONTINUED,
CDISCPILOT01,01-716-1167,1167,716,USA,North America,1,92,YEARS,65,3,Male,Asian,Y,4,White,1,Not Hispanic or Latino,Y,Y,2012-10-08,Treatment B,TrtB,Treatment B,TrtB,Treatment B,2,Treatment B,2,2012-10-08,00:00:00,2012-10-08,H,2013-04-12,2013-04-12 23:59:59,H,187.0,,,,,,,,,,,,2013-04-13,COMPLETED,
CDISCPILOT01,01-708-1428,1428,708,USA,North America,1,42,YEARS,41–64,2,Female,White,Y,4,White,1,Hispanic or Latino,Y,Y,2013-11-09,Treatment A,TrtA,Treatment A,TrtA,Treatment A,1,Treatment A,1,2013-11-09,00:00:00,2013-11-09,H,2013-12-14,2013-12-14 23:59:59,H,36.0,,,,,,,,,,,,2014-01-31,DISCONTINUED,
CDISCPILOT01,01-708-1184,1184,708,USA,North America,1,58,YEARS,41–64,2,Female,White,,4,White,1,Not Hispanic or Latino,N,,,Treatment B,TrtB,Treatment B,TrtB,Treatment B,2,Treatment B,2,,,,,,,,,,,,,,,,,,,2013-01-14,,,
CDISCPILOT01,01-708-1104,1104,708,USA,North America,1,95,YEARS,65,3,Male,White,,2,Non-white,2,Not Hispanic or Latino,N,,,Treatment B,TrtB,Treatment B,TrtB,Treatment B,2,Treatment B,2,,,,,,,,,,,,,,,,,,,2014-01-23,,,
CDISCPILOT01,01-704-1009,1009,704,USA,North America,1,77,YEARS,65,3,Male,Asian,Y,4,White,1,Not Hispanic or Latino,Y,Y,2013-08-27,Treatment A,TrtA,Treatment A,TrtA,Treatment A,1,Treatment A,1,2013-08-27,00:00:00,2013-08-27,H,2013-09-25,2013-09-25 23:59:59,H,30.0,,,,,,,,,,,,2013-10-02,DISCONTINUED,
CDISCPILOT01,01-716-1094,1094,716,USA,North America,1,89,YEARS,65,3,Female,White,Y,4,White,1,Hispanic or Latino,Y,Y,2012-12-19,Treatment A,TrtA,Treatment A,TrtA,Treatment A,1,Treatment A,1,2012-12-19,00:00:00,2012-12-19,H,2013-01-24,2013-01-24 23:59:59,H,37.0,,,,,,,,,,,,2013-01-26,DISCONTINUED,2013-06-22
CDISCPILOT01,01-717-1344,1344,717,USA,North America,1,64,YEARS,41–64,2,Male,White,Y,4,White,1,Not Hispanic or Latino,Y,Y,2014-01-11,Treatment B,TrtB,Treatment B,TrtB,Treatment B,2,Treatment B,2,2014-01-11,00:00:00,2014-01-11,H,2014-03-14,2014-03-14 23:59:59,H,63.0,,,,,,,,,,,,2014-03-14,DISCONTINUED,
CDISCPILOT01,01-711-1251,1251,711,USA,North America,1,68,YEARS,65,3,Male,Asian,,4,White,1,Not Hispanic or Latino,N,,,Treatment B,TrtB,Treatment B,TrtB,Treatment B,2,Treatment B,2,,,,,,,,,,,,,,,,,,,2014-02-28,,,
CDISCPILOT01,01-704-1323,1323,704,USA,North America,1,40,YEARS,18–40,1,Female,Black or African American,Y,4,White,1,Not Hispanic or Latino,Y,Y,2013-07-08,Treatment B,TrtB,Treatment B,TrtB,Treatment B,2,Treatment B,2,2013-07-08,00:00:00,2013-07-08,H,2013-08-05,2013-08-05 23:59:59,H,29.0,,,,,,,,,,,,2013-08-08,DISCONTINUED,
CDISCPILOT01,01-718-1172,1172,718,USA,North America,1,54,YEARS,41–64,2,Male,White,Y,4,White,1,Not Hispanic or Latino,Y,Y,2013-09-21,Treatment A,TrtA,Treatment A,TrtA,Treatment A,1,Treatment A,1,2013-09-21,00:00:00,2013-09-21,H,2013-11-29,2013-11-29 23:59:59,H,70.0,,,,,,,,,,,,2013-11-29,DISCONTINUED,2014-03-21
CDISCPILOT01,01-709-1259,1259,709,USA,North America,1,52,YEARS,41–64,2,Female,White,Y,4,White,1,Not Hispanic or Latino,Y,Y,2013-01-26,Treatment A,TrtA,Treatment A,TrtA,Treatment A,1,Treatment A,1,2013-01-26,00:00:00,2013-01-26,H,2013-06-13,2013-06-13 23:59:59,H,139.0,,,,,,,,,,,,2013-06-13,DISCONTINUED,
CDISCPILOT01,01-709-1259,1259,709,USA,North America,1,51,YEARS,41–64,2,Female,White,Y,4,White,1,Not Hispanic or Latino,Y,Y,2013-01-26,Treatment A,TrtA,Treatment A,TrtA,Treatment A,1,Treatment A,1,2013-01-26,00:00:00,2013-01-26,H,2013-06-13,2013-06-13 23:59:59,H,139.0,,,,,,,,,,,,2013-06-13,DISCONTINUED,
CDISCPILOT01,01-714-1288,1288,714,USA,North America,1,55,YEARS,41–64,2,Male,White,Y,3,Non-white,2,Not Hispanic or Latino,Y,Y,2013-12-04,Treatment A,TrtA,Treatment A,TrtA,Treatment A,1,Treatment A,1,2013-12-04,00:00:00,2013-12-04,H,2014-06-17,2014-06-17 23:59:59,H,196.0,,,,,,,,,,,,2014-06-17,COMPLETED,
CDISCPILOT01,01-711-1226,1226,711,USA,North America,1,48,YEARS,41–64,2,Female,White,,4,White,1,Not Hispanic or Latino,N,,,Treatment B,TrtB,Treatment B,TrtB,Treatment B,2,Treatment B,2,,,,,,,,,,,,,,,,,,,2013-10-24,,,
CDISCPILOT01,01-708-1032,1032,708,USA,North America,1,34,YEARS,18–40,1,Female,White,Y,4,White,1,Not Hispanic or Latino,Y,Y,2013-02-09,Treatment A,TrtA,Treatment A,TrtA,Treatment A,1,Treatment A,1,2013-02-09,00:00:00,2013-02-09,H,2013-03-01,2013-03-01 23:59:59,H,21.0,,,,,,,,,,,,2013-03-09,DISCONTINUED,
CDISCPILOT01,01-701-1294,1294,701,USA,North America,1,87,YEARS,65,3,Female,Asian,Y,4,White,1,Not Hispanic or Latino,Y,Y,2013-03-24,Treatment B,TrtB,Treatment B,TrtB,Treatment B,2,Treatment B,2,2013-03-24,00:00:00,2013-03-24,H,2013-06-14,2013-06-14 23:59:59,H,83.0,,,,,,,,,,,,2013-06-14,DISCONTINUED,2013-10-08
CDISCPILOT01,01-717-1174,1174,717,USA,North America,1,76,YEARS,65,3,Female,White,Y,4,White,1,Not Hispanic or Latino,Y,Y,2013-01-22,Treatment A,TrtA,Treatment A,TrtA,Treatment A,1,Treatment A,1,2013-01-22,00:00:00,2013-01-22,H,2013-07-24,2013-07-24 23:59:59,H,184.0,,,,,,,,,,,,2013-07-24,COMPLETED,
CDISCPILOT01,01-707-1037,1037,707,USA,North America,1,84,YEARS,65,3,Female,White,Y,4,White,1,Not Hispanic or Latino,Y,Y,2013-12-20,Treatment A,TrtA,Treatment A,TrtA,Treatment A,1,Treatment A,1,2013-12-20,00:00:00,2013-12-20,H,2013-12-24,2013-12-24 23:59:59,H,5.0,,,,,,,,,,,,2014-01-08,DISCONTINUED,
CDISCPILOT01,01-711-1036,1036,711,USA,North America,1,39,YEARS,18–40,1,Female,White,Y,3,Non-white,2,Not Hispanic or Latino,Y,Y,2012-07-29,Treatment A,TrtA,Treatment A,TrtA,Treatment A,1,Treatment A,1,2012-07-29,00:00:00,2012-07-29,H,2013-02-10,2013-02-10 23:59:59,H,197.0,,,,,,,,,,,,2013-02-10,COMPLETED,
CDISCPILOT01,01-709-1326,1326,709,USA,North America,1,33,YEARS,18–40,1,Male,White,Y,4,White,1,Not Hispanic or Latino,Y,Y,2013-04-05,Treatment A,TrtA,Treatment A,TrtA,Treatment A,1,Treatment A,1,2013-04-05,00:00:00,2013-04-05,H,2013-10-02,2013-10-02 23:59:59,H,181.0,,,,,,,,,,,,2013-10-02,COMPLETED,
CDISCPILOT01,01-715-1134,1134,715,USA,North America,1,90,YEARS,65,3,Female,Asian,,4,White,1,Not Hispanic or Latino,N,,,Treatment A,TrtA,Treatment A,TrtA,Treatment A,1,Treatment A,1,,,,,,,,,,,,,,,,,,,2014-04-17,,,
CDISCPILOT01,01-703-1258,1258,703,USA,North America,1,37,YEARS,18–40,1,Male,White,Y,4,White,1,Not Hispanic or Latino,Y,Y,2012-07-20,Treatment A,TrtA,Treatment A,TrtA,Treatment A,1,Treatment A,1,2012-07-20,00:00:00,2012-07-20,H,2013-01-11,2013-01-11 23:59:59,H,176.0,,,,,,,,,,,,2013-01-21,DISCONTINUED,
CDISCPILOT01,01-710-1060,1060,710,USA,North America,1,56,YEARS,41–64,2,Male,Black or African American,Y,4,White,1,Not Hispanic or Latino,Y,Y,2013-01-01,Treatment A,TrtA,Treatment A,TrtA,Treatment A,1,Treatment A,1,2013-01-01,00:00:00,2013-01-01,H,2013-07-05,2013-07-05 23:59:59,H,186.0,,,,,,,,,,,,2013-07-05,COMPLETED,
CDISCPILOT01,01-701-1429,1429,701,USA,North America,1,80,YEARS,65,3,Male,White,Y,4,White,1,Not Hispanic or Latino,Y,Y,2013-03-19,Treatment A,TrtA,Treatment A,TrtA,Treatment A,1,Treatment A,1,2013-03-19,00:00:00,2013-03-19,H,2013-04-30,2013-04-30 23:59:59,H,43.0,,,,,,,,,,,,2013-04-30,DISCONTINUED,
CDISCPILOT01,01-704-1241,1241,704,USA,North America,1,57,YEARS,41–64,2,Female,White,Y,4,White,1,Not Hispanic or Latino,Y,Y,2013-08-25,Treatment A,TrtA,Treatment A,TrtA,Treatment A,1,Treatment A,1,2013-08-25,00:00:00,2013-08-25,H,2013-10-09,2013-10-09 23:59:59,H,46.0,,,,,,,,,,,,2013-10-31,DISCONTINUED,
CDISCPILOT01,01-701-1294,1294,701,USA,North America,1,51,YEARS,41–64,2,Female,White,Y,4,White,1,Not Hispanic or Latino,Y,Y,2013-03-24,Treatment A,TrtA,Treatment A,TrtA,Treatment A,1,Treatment A,1,2013-03-24,00:00:00,2013-03-24,H,2013-06-14,2013-06-14 23:59:59,H,83.0,,,,,,,,,,,,2013-06-14,DISCONTINUED,2013-10-08
CDISCPILOT01,01-703-1096,1096,703,USA,North America,1,88,YEARS,65,3,Male,White,Y,4,White,1,Hispanic or Latino,Y,Y,2013-01-25,Treatment A,TrtA,Treatment A,TrtA,Treatment A,1,Treatment A,1,2013-01-25,00:00:00,2013-01-25,H,2013-03-16,2013-03-16 23:59:59,H,51.0,,,,,,,,,,,,2013-03-29,DISCONTINUED,
CDISCPILOT01,01-714-1195,1195,714,USA,North America,1,80,YEARS,65,3,Male,White,Y,4,White,1,Not Hispanic or Latino,Y,Y,2013-04-26,Treatment B,TrtB,Treatment B,TrtB,Treatment B,2,Treatment B,2,2013-04-26,00:00:00,2013-04-26,H,2013-10-23,2013-10-23 23:59:59,H,181.0,,,,,,,,,,,,2013-10-23,COMPLETED,
CDISCPILOT01,01-715-1397,1397,715,USA,North America,1,46,YEARS,41–64,2,Male,White,Y,4,White,1,Not Hispanic or Latino,Y,Y,2013-04-03,Treatment A,TrtA,Treatment A,TrtA,Treatment A,1,Treatment A,1,2013-04-03,00:00:00,2013-04-03,H,2013-10-02,2013-10-02 23:59:59,H,183.0,,,,,,,,,,,,2013-10-03,COMPLETED,
CDISCPILOT01,01-708-1213,1213,708,USA,North America,1,70,YEARS,65,3,Male,White,Y,4,White,1,Not Hispanic or Latino,Y,Y,2013-02-09,Treatment A,TrtA,Treatment A,TrtA,Treatment A,1,Treatment A,1,2013-02-09,00:00:00,2013-02-09,H,2013-02-22,2013-02-22 23:59:59,H,14.0,,,,,,,,,,,,2013-02-26,DISCONTINUED,
CDISCPILOT01,01-701-1302,1302,701,USA,North America,1,42,YEARS,41–64,2,Female,Black or African American,Y,4,White,1,Not Hispanic or Latino,Y,Y,2013-08-29,Treatment B,TrtB,Treatment B,TrtB,Treatment B,2,Treatment B,2,2013-08-29,00:00:00,2013-08-29,H,2013-11-05,2013-11-05 23:59:59,H,69.0,,,,,,,,,,,,2013-11-05,DISCONTINUED,2014-02-13
CDISCPILOT01,01-704-1266,1266,704,USA,North America,1,42,YEARS,41–64,2,Male,White,Y,4,White,1,Not Hispanic or Latino,Y,Y,2013-10-13,Treatment B,TrtB,Treatment B,TrtB,Treatment B,2,Treatment B,2,2013-10-13,00:00:00,2013-10-13,H,2013-12-06,2013-12-06 23:59:59,H,55.0,,,,,,,,,,,,2013-12-06,DISCONTINUED,
CDISCPILOT01,01-701-1047,1047,701,USA,North America,1,64,YEARS,41–64,2,Male,White,Y,4,White,1,Not Hispanic or Latino,Y,Y,2013-02-12,Treatment B,TrtB,Treatment B,TrtB,Treatment B,2,Treatment B,2,2013-02-12,00:00:00,2013-02-12,H,2013-03-09,2013-03-09 23:59:59,H,26.0,,,,,,,,,,,,2013-03-29,DISCONTINUED,2013-07-28
CDISCPILOT01,01-716-1229,1229,716,USA,North America,1,20,YEARS,18–40,1,Female,White,Y,4,White,1,Not Hispanic or Latino,Y,Y,2013-02-20,Treatment B,TrtB,Treatment B,TrtB,Treatment B,2,Treatment B,2,2013-02-20,00:00:00,2013-02-20,H,2013-03-31,2013-03-31 23:59:59,H,40.0,,,,,,,,,,,,2013-04-02,DISCONTINUED,
